#(dyn/cm2)	(K)
Pressure	Temp
1.000E+09	5079.725
6.673E+08	4699.542
4.453E+08	4404.752
2.971E+08	4158.8279999999995
1.983E+08	3931.734
1.323E+08	3721.877
8.830E+07	3528.09
5.892E+07	3349.781
3.932E+07	3185.424
2.624E+07	3033.058
1.751E+07	2890.989
1.168E+07	2757.508
7.796E+06	2630.881
5.203E+06	2509.261
3.472E+06	2390.409
2.317E+06	2271.67
1.546E+06	2150.333
1.032E+06	2022.143
6.884E+05	1881.334
4.594E+05	1722.473
3.065E+05	1584.907
2.046E+05	1440.97
1.365E+05	1308.828
9.109E+04	1190.498
6.078E+04	1085.446
4.056E+04	994.616
2.707E+04	918.953
1.806E+04	857.805
1.205E+04	809.739
8.043E+03	773.104
5.367E+03	746.109
3.581E+03	726.957
2.390E+03	714.016
1.595E+03	705.908
1.064E+03	701.4069999999999
7.102E+02	699.415
4.739E+02	699.053
3.162E+02	700.069
2.110E+02	701.903
1.408E+02	703.7149999999999
9.397E+01	704.943
6.270E+01	705.058
4.184E+01	703.99
2.792E+01	701.98
1.863E+01	699.136
1.243E+01	695.524
8.297E+00	690.717
5.537E+00	685.886
3.695E+00	681.447
2.465E+00	677.092
1.645E+00	672.972
1.098E+00	669.028
7.326E-01	664.996
4.889E-01	660.502
3.262E-01	655.26
2.177E-01	649.241
1.453E-01	642.677
9.694E-02	635.906
6.469E-02	629.246
4.317E-02	622.924
2.880E-02	617.1859999999999
1.922E-02	611.79
1.283E-02	606.7239999999999
8.559E-03	601.722
5.712E-03	596.646
3.811E-03	591.496
2.543E-03	586.89
1.697E-03	582.915
1.133E-03	579.652
7.558E-04	577.053
5.043E-04	574.914
3.365E-04	573.557
2.246E-04	570.738
1.499E-04	574.288
1.000E-04	598.365
