#(dyn/cm2)	(K)
Pressure	Temp
1.000E+09	4879.725
6.673E+08	4499.542
4.453E+08	4204.752
2.971E+08	3958.828
1.983E+08	3731.734
1.323E+08	3521.877
8.830E+07	3328.09
5.892E+07	3149.781
3.932E+07	2985.424
2.624E+07	2833.058
1.751E+07	2690.989
1.168E+07	2557.508
7.796E+06	2430.881
5.203E+06	2309.261
3.472E+06	2190.409
2.317E+06	2071.67
1.546E+06	1950.333
1.032E+06	1822.143
6.884E+05	1681.334
4.594E+05	1522.473
3.065E+05	1384.907
2.046E+05	1240.97
1.365E+05	1108.828
9.109E+04	990.498
6.078E+04	885.446
4.056E+04	794.616
2.707E+04	718.953
1.806E+04	657.805
1.205E+04	609.739
8.043E+03	573.104
5.367E+03	546.109
3.581E+03	526.957
2.390E+03	514.016
1.595E+03	505.908
1.064E+03	501.407
7.102E+02	499.415
4.739E+02	499.053
3.162E+02	500.069
2.110E+02	501.903
1.408E+02	503.715
9.397E+01	504.943
6.270E+01	505.058
4.184E+01	503.99
2.792E+01	501.98
1.863E+01	499.136
1.243E+01	495.524
8.297E+00	490.717
5.537E+00	485.886
3.695E+00	481.447
2.465E+00	477.092
1.645E+00	472.972
1.098E+00	469.028
7.326E-01	464.996
4.889E-01	460.502
3.262E-01	455.26
2.177E-01	449.241
1.453E-01	442.677
9.694E-02	435.906
6.469E-02	429.246
4.317E-02	422.924
2.880E-02	417.186
1.922E-02	411.79
1.283E-02	406.724
8.559E-03	401.722
5.712E-03	396.646
3.811E-03	391.496
2.543E-03	386.89
1.697E-03	382.915
1.133E-03	379.652
7.558E-04	377.053
5.043E-04	374.914
3.365E-04	373.557
2.246E-04	370.738
1.499E-04	374.288
1.000E-04	398.365
