#(dyn/cm2)	(K)
Pressure	Temp
1.000E+09	5379.725
6.673E+08	4999.542
4.453E+08	4704.752
2.971E+08	4458.8279999999995
1.983E+08	4231.734
1.323E+08	4021.877
8.830E+07	3828.09
5.892E+07	3649.781
3.932E+07	3485.424
2.624E+07	3333.058
1.751E+07	3190.989
1.168E+07	3057.508
7.796E+06	2930.881
5.203E+06	2809.261
3.472E+06	2690.409
2.317E+06	2571.67
1.546E+06	2450.333
1.032E+06	2322.143
6.884E+05	2181.334
4.594E+05	2022.473
3.065E+05	1884.907
2.046E+05	1740.97
1.365E+05	1608.828
9.109E+04	1490.498
6.078E+04	1385.446
4.056E+04	1294.616
2.707E+04	1218.953
1.806E+04	1157.8049999999998
1.205E+04	1109.739
8.043E+03	1073.104
5.367E+03	1046.109
3.581E+03	1026.9569999999999
2.390E+03	1014.016
1.595E+03	1005.908
1.064E+03	1001.4069999999999
7.102E+02	999.415
4.739E+02	999.053
3.162E+02	1000.069
2.110E+02	1001.903
1.408E+02	1003.7149999999999
9.397E+01	1004.943
6.270E+01	1005.058
4.184E+01	1003.99
2.792E+01	1001.98
1.863E+01	999.136
1.243E+01	995.524
8.297E+00	990.717
5.537E+00	985.886
3.695E+00	981.447
2.465E+00	977.092
1.645E+00	972.972
1.098E+00	969.028
7.326E-01	964.996
4.889E-01	960.502
3.262E-01	955.26
2.177E-01	949.241
1.453E-01	942.677
9.694E-02	935.906
6.469E-02	929.246
4.317E-02	922.924
2.880E-02	917.1859999999999
1.922E-02	911.79
1.283E-02	906.7239999999999
8.559E-03	901.722
5.712E-03	896.646
3.811E-03	891.496
2.543E-03	886.89
1.697E-03	882.915
1.133E-03	879.652
7.558E-04	877.053
5.043E-04	874.914
3.365E-04	873.557
2.246E-04	870.738
1.499E-04	874.288
1.000E-04	898.365
